ACCELEROMETER X (m/s²),ACCELEROMETER Y (m/s²),ACCELEROMETER Z (m/s²),GRAVITY X (m/s²),GRAVITY Y (m/s²),GRAVITY Z (m/s²),LINEAR ACCELERATION X (m/s²),LINEAR ACCELERATION Y (m/s²),LINEAR ACCELERATION Z (m/s²),GYROSCOPE X (rad/s),GYROSCOPE Y (rad/s),GYROSCOPE Z (rad/s),LIGHT (lux),MAGNETIC FIELD X (μT),MAGNETIC FIELD Y (μT),MAGNETIC FIELD Z (μT),ORIENTATION Z (azimuth °),ORIENTATION X (pitch °),ORIENTATION Y (roll °),PROXIMITY (m),SOUND LEVEL (dB),LOCATION Latitude : ,LOCATION Longitude : ,LOCATION Altitude ( m),LOCATION Altitude-google ( m),LOCATION Speed ( Kmh),LOCATION Accuracy ( m),LOCATION ORIENTATION (°),Satellites in range,Time since start in ms,YYYY-MO-DD HH-MI-SS_SSS
-2.1217,0.4476,9.5648,-1.9168,0.5385,9.6024,-1.1172,-0.7871,-1.6422,-0.0824,-0.455,-0.5179,118,34.67,-56.47,-117.56,186.46,-6.33,14.3,5,50.075,47.85888,12.126592,,NaN,,22.223,,0 / 25,7,2018-11-18 16:38:09:894
-0.8012,-0.1189,10.2881,0.3075,0.2718,9.7981,-0.3792,-2.4862,1.0919,0.2359,0.045,-0.1329,88,26.08,-52.19,-121.73,203.62,0.59,1.27,5,48.553,47.858624,12.126501,497,NaN,4,16.08,225.6,0 / 25,1008,2018-11-18 16:38:10:895
-1.5882,-1.9375,9.0291,-1.5541,-2.3349,9.397,-0.9884,-1.647,-0.3692,0.4457,0.2778,1.9865,122,27.46,-47.94,-118.64,208.2,1.67,-0.28,5,48.204,47.858624,12.126501,497,NaN,4,16.08,225.6,0 / 25,2008,2018-11-18 16:38:11:895
-0.7653,-1.8904,12.8385,0.1373,0.2698,9.802,-0.4699,-1.1299,1.8932,0.162,0.0356,0.1805,82,26.7,-56.36,-121.15,209.47,-1.68,-1.25,5,50.134,47.858624,12.126501,497,NaN,4,16.08,225.6,0 / 25,3007,2018-11-18 16:38:12:894
0.5641,1.8296,9.5367,0.6747,1.058,9.726,0.0759,0.8225,-0.7064,0.0072,-0.1043,0.0621,78,24.33,-58.58,-122.09,216.33,-6.15,-4.6,5,44.104,47.858624,12.126501,497,NaN,4,16.08,225.6,0 / 25,4008,2018-11-18 16:38:13:895
2.1278,0.8927,11.1429,0.9653,1.33,9.668,1.6266,0.3023,-0.503,-0.569,-0.4057,-0.281,78,24.93,-62.65,-122.39,218.23,-9.92,-3.58,5,50.261,47.858624,12.126501,497,NaN,4,16.08,225.6,0 / 25,5007,2018-11-18 16:38:14:894
-0.489,1.8814,8.7496,0.2761,1.0842,9.7426,-0.6176,0.6016,-0.7394,-0.0264,0.022,-0.1241,80,25.32,-58.95,-122.75,212.82,-6.52,-1.8,5,56.232,47.858624,12.126501,497,NaN,4,16.08,225.6,0 / 25,6008,2018-11-18 16:38:15:895
0.5376,-0.0537,10.1179,1.158,1.0985,9.6759,0.2806,-0.47,-1.0315,-0.247,-0.0606,-0.0279,77,21.32,-56.54,-124.06,216.02,-5.53,-5.48,5,57.198,47.858624,12.126501,497,NaN,4,16.08,225.6,0 / 25,7007,2018-11-18 16:38:16:894
1.6821,2.4596,10.1517,1.0663,1.1346,9.6823,0.303,0.6359,0.7298,0.0994,0.2469,0.0063,74,18.67,-56.5,-125.03,220.14,-6.02,-8.02,5,61.336,47.858624,12.126501,497,NaN,4,16.08,225.6,0 / 25,8008,2018-11-18 16:38:17:895
1.3774,1.1977,8.453,0.2871,1.2715,9.7196,-0.7167,-0.2487,-0.0321,0.3927,-0.1971,0.2494,82,20.47,-56.77,-124.09,215.88,-8.33,-3.7,5,47.455,47.858624,12.126501,497,NaN,4,16.08,225.6,0 / 25,9008,2018-11-18 16:38:18:895
-0.6064,1.9088,11.0365,0.2047,1.2332,9.7266,-0.9316,0.4673,1.2065,-0.0019,-0.2258,-0.0679,85,22.94,-57.4,-123.51,210.94,-8.18,-0.11,5,42.093,47.858624,12.126501,497,NaN,4,16.08,225.6,0 / 25,10007,2018-11-18 16:38:19:894
-0.0852,2.0914,7.7682,-0.1001,1.6713,9.6627,-0.1156,-0.0162,-1.1768,0.4209,-0.3091,0.0573,87,23.44,-61.54,-123.65,207.85,-8.96,0.4,5,46.455,47.858624,12.126501,497,NaN,4,16.08,225.6,0 / 25,11007,2018-11-18 16:38:20:894
-1.2197,-0.6331,11.2201,-0.5543,1.3168,9.702,-0.8361,-2.339,3.1239,-0.356,0.232,-0.0414,92,23.66,-59.2,-123.53,210.41,-8.34,0.13,5,47.767,47.858624,12.126501,497,NaN,4,16.08,225.6,0 / 25,12007,2018-11-18 16:38:21:894
-0.0126,1.8991,7.6973,0.0637,1.3706,9.7102,0.0725,0.8394,-0.3943,0.1841,-0.0798,0.1438,86,23.69,-57.89,-123.17,208.19,-7.52,0.85,5,41.392,47.858624,12.126501,497,NaN,4,16.08,225.6,0 / 25,13008,2018-11-18 16:38:22:895
-2.2152,-1.0325,12.0392,-0.4689,0.9792,9.7464,-1.2731,-1.606,2.7283,-0.6384,-0.1601,-0.6532,91,26.07,-59.12,-123.04,201.86,-9.28,4.95,5,47.641,47.858624,12.126501,497,NaN,4,16.08,225.6,0 / 25,14007,2018-11-18 16:38:23:894
-1.1604,2.3701,8.9395,-0.8374,1.6123,9.6369,-0.5609,0.7539,-1.3671,0.0376,0.1814,0.0912,92,25.9,-59.51,-122.1,205.99,-8.36,2.7,5,47.639,47.858624,12.126501,497,NaN,4,16.08,225.6,0 / 25,15007,2018-11-18 16:38:24:894
-2.3392,-0.0724,10.9532,-1.3262,1.7143,9.5641,-0.3129,-1.2017,0.1723,0.2368,-0.438,-0.1793,114,30.65,-58.04,-119.62,195.62,-8.56,9.44,5,47.002,47.858624,12.126501,497,NaN,4,16.08,225.6,0 / 25,16008,2018-11-18 16:38:25:895
-1.5302,1.6553,9.0434,-1.6392,1.2908,9.5821,0.6644,1.031,0.0445,0.1104,0.0919,0.2267,98,26.44,-55.86,-120.9,198.65,-7.27,5.87,5,43.98,47.858624,12.126501,497,NaN,4,16.08,225.6,0 / 25,17007,2018-11-18 16:38:26:894
0.9353,1.003,8.9583,-1.0001,1.2105,9.6801,1.5321,-0.8115,-0.1325,0.1805,-0.0731,-0.0071,98,27.55,-56.65,-120.26,197.6,-7.97,7.31,5,49.921,47.858624,12.126501,497,NaN,4,16.08,225.6,0 / 25,18007,2018-11-18 16:38:27:894
-2.4103,1.768,10.6367,-1.3966,1.7292,9.5514,-0.4768,0.3275,0.7149,0.0855,0.1113,-0.0874,95,29.99,-60.23,-119.74,196.97,-10.06,8.72,5,48.8,47.858624,12.126501,497,NaN,4,16.08,225.6,0 / 25,19008,2018-11-18 16:38:28:895
-1.495,1.4852,7.3721,-1.1152,1.972,9.5414,-0.7691,-0.8668,-1.4688,-0.2065,0.3629,-0.1688,88,27.15,-59.83,-123.87,203.73,-11.26,5.47,5,44.675,47.858624,12.126501,497,NaN,4,16.08,225.6,0 / 25,20008,2018-11-18 16:38:29:895
-0.9133,2.6012,9.6032,-0.829,2.3285,9.4901,0.9263,1.7441,-1.079,0.1528,0.0954,-0.1319,88,28.02,-56.03,-125.22,205.19,-9.57,5.44,5,42.571,47.858624,12.126501,497,NaN,4,16.08,225.6,0 / 25,21007,2018-11-18 16:38:30:894
-0.5773,1.9767,8.8809,-0.2241,2.2838,9.5344,1.6061,0.273,-1.7729,0.2656,-0.3062,-0.2101,81,14.84,-55.09,-126.77,204.41,-14.83,2.56,5,44.106,47.858624,12.126501,497,NaN,4,16.08,225.6,0 / 25,22008,2018-11-18 16:38:31:895
1.3447,3.5182,8.7464,0.2394,2.9524,9.3486,0.4689,0.8274,-0.1778,-0.176,-0.5074,-0.6282,79,7.92,-56.74,-127.65,194.53,-16.71,1.52,5,45.137,47.858624,12.126501,497,NaN,4,16.08,225.6,0 / 25,23007,2018-11-18 16:38:32:894
-0.942,2.5666,8.4685,-0.4083,2.0043,9.5909,-0.8176,0.0513,-0.6386,0.0372,-0.0769,0.2165,79,1.79,-54.66,-126.79,169.75,-13.33,2.88,5,44.584,47.858624,12.126501,497,NaN,4,16.08,225.6,0 / 25,24007,2018-11-18 16:38:33:894
-2.6362,-1.2609,14.1799,-0.7443,1.8633,9.5992,-0.475,-0.9112,-0.7872,-0.5387,-0.2305,-0.3473,88,5.06,-53.38,-127.45,169.34,-9.4,4.93,5,46.104,47.858624,12.126501,497,NaN,4,16.08,225.6,0 / 25,25008,2018-11-18 16:38:34:895
-1.1203,2.8408,9.6352,-0.8601,2.0687,9.5473,-0.3848,0.654,0.0631,0.1331,0.0766,0.5477,91,4.06,-55.09,-127.69,163.67,-11.49,5.52,5,47.052,47.858624,12.126501,497,NaN,4,16.08,225.6,0 / 25,26008,2018-11-18 16:38:35:895
-0.4896,2.2296,7.9926,-0.5301,1.972,9.5917,-0.1292,-0.066,-0.9646,0.4106,-0.1196,-0.0509,96,4.02,-55.73,-127.96,173.05,-10.25,3.55,5,47.027,47.858624,12.126501,497,NaN,4,16.08,225.6,0 / 25,27007,2018-11-18 16:38:36:894
1.2542,2.1014,7.2297,-0.4171,2.1856,9.5509,0.7274,-0.8837,-1.6313,0.07,0.3033,-0.0392,91,0.58,-56.73,-127.34,173.52,-12.43,1.9,5,45.633,47.858624,12.126501,497,NaN,4,16.08,225.6,0 / 25,28007,2018-11-18 16:38:37:894
-2.8028,2.7918,9.4216,-1.2505,2.5641,9.3825,-0.601,0.2825,0.5093,-0.069,-0.1307,0.1038,92,7.37,-58.06,-126.46,157.37,-13.97,8.09,5,47.984,47.858624,12.126501,497,NaN,4,16.08,225.6,0 / 25,29007,2018-11-18 16:38:38:894
-1.4155,1.9429,8.38,-1.3946,2.4507,9.3925,-0.0201,-0.4088,-2.1032,0.05,0.287,0.011,94,6.85,-58.49,-126.33,165.1,-13.57,6.42,5,44.306,47.858624,12.126501,497,NaN,4,16.08,225.6,0 / 25,30008,2018-11-18 16:38:39:895
-1.7825,0.967,9.6623,-1.1376,1.8837,9.5566,-1.2138,-1.4611,1.8979,-0.4509,0.2218,0.1093,95,7.81,-56.83,-125.75,173.36,-12.56,5.12,5,42.616,47.858624,12.126501,497,NaN,4,16.08,225.6,0 / 25,31007,2018-11-18 16:38:40:894
-0.9611,0.9303,12.5283,-0.9928,2.0377,9.5411,1.484,1.3188,0.2626,-0.6594,0.0188,-0.5034,113,6.81,-56.2,-125.83,171.63,-11.9,5.1,5,45.857,47.858624,12.126501,497,NaN,4,16.08,225.6,0 / 25,32008,2018-11-18 16:38:41:895
-0.8258,1.5681,8.6102,-0.8468,1.6862,9.6234,-0.2329,0.7288,-0.8965,0.1291,-0.0952,-0.1058,114,2.31,-54.22,-125.31,164.1,-8.25,5.56,5,49.083,47.858624,12.126501,497,NaN,4,16.08,225.6,0 / 25,33007,2018-11-18 16:38:42:894
-2.1121,0.0749,11.1466,-0.2534,2.1733,9.5595,-0.3155,-0.7171,1.0962,-0.4306,-0.1926,-0.5797,118,-4.43,-59.69,-126.16,157.5,-12.65,4.04,5,41.987,47.858624,12.126501,497,NaN,4,16.08,225.6,0 / 25,34007,2018-11-18 16:38:43:894
-2.5027,2.1515,8.7746,-0.9493,1.9817,9.5573,-1.2276,0.3055,-0.494,0.3051,-0.0168,-0.1099,114,-3.34,-56.35,-125.86,159.72,-8.99,4.65,5,44.696,47.858624,12.126501,497,NaN,4,16.08,225.6,0 / 25,35008,2018-11-18 16:38:44:895
-0.2043,1.7079,8.124,-1.3494,1.4912,9.5982,0.9842,-0.1668,-0.9859,-0.0154,-0.0461,0.1195,112,0.58,-54.86,-126.69,151.09,-10.11,8.47,5,45.357,47.858624,12.126501,497,NaN,4,16.08,225.6,0 / 25,36007,2018-11-18 16:38:45:894
-1.8487,1.445,9.1695,-1.5086,1.3805,9.5911,-0.1884,1.1603,-0.3242,0.0095,0.451,0.7747,100,2.04,-50.92,-126.21,159.03,-7.45,6.9,5,44.21,47.858624,12.126501,497,NaN,4,16.08,225.6,0 / 25,37008,2018-11-18 16:38:46:895
-0.9923,-1.1261,11.4549,-1.1955,0.4846,9.7214,0.4214,-1.6463,1.9239,0.4576,-0.2189,0.4918,92,13.7,-46.59,-125.72,167.49,-4.77,9.98,5,45.703,47.858624,12.126501,497,NaN,4,16.08,225.6,0 / 25,38007,2018-11-18 16:38:47:894
-0.954,2.4914,10.0043,-1.677,1.9302,9.4674,0.2404,0.432,-0.4036,-0.0397,0.002,0.3454,82,23.38,-53.43,-124.74,176.44,-10.71,11.22,5,45.744,47.858624,12.126501,497,NaN,4,16.08,225.6,0 / 25,39008,2018-11-18 16:38:48:895
0.3574,1.7326,7.7667,-0.5192,1.6187,9.6582,0.2375,-0.6182,-1.2,-0.0135,0.1417,0.0314,86,20.7,-59.99,-126.91,203.36,-10.35,2.44,5,49.085,47.858624,12.126501,497,NaN,4,16.08,225.6,0 / 25,40008,2018-11-18 16:38:49:895
-0.3986,1.4799,10.5198,-0.9329,1.0485,9.7057,1.0545,-0.5092,-1.541,0.6307,0.0083,0.5208,82,22.29,-58.13,-126.62,194.64,-6.8,4.9,5,53.315,47.858624,12.126501,497,NaN,4,16.08,225.6,0 / 25,41007,2018-11-18 16:38:50:894
-0.5905,1.5584,9.0195,-0.7568,0.9517,9.731,-0.3508,0.1935,-0.356,0.1014,-0.07,0.0851,80,21.5,-56.92,-125.59,195.7,-4.74,4.07,5,51.696,47.858624,12.126501,497,NaN,4,16.08,225.6,0 / 25,42007,2018-11-18 16:38:51:894
0.497,0.0954,10.1319,-0.5356,0.8683,9.7534,1.3225,-0.5445,0.0192,-0.1519,-0.1008,-0.1394,80,19.15,-57.97,-123.13,190.85,-7.49,5.13,5,49.1,47.858624,12.126501,497,NaN,4,16.08,225.6,0 / 25,43007,2018-11-18 16:38:52:894
1.1704,1.9265,10.5692,-0.7039,1.4748,9.6695,1.3575,1.0129,0.3985,-0.3829,-0.3255,-0.1748,77,20.45,-60.99,-121.95,188.44,-10.02,6.66,5,43.78,47.858624,12.126501,497,NaN,4,16.08,225.6,0 / 25,44008,2018-11-18 16:38:53:895
-1.1537,0.8105,7.7083,-1.0228,1.0837,9.6928,-0.6708,0.9581,-0.0331,0.0813,0.0286,0.0544,73,20.85,-58.39,-122.03,191.14,-6.07,5.7,5,43.294,47.858624,12.126501,497,NaN,4,16.08,225.6,0 / 25,45007,2018-11-18 16:38:54:894
0.3431,0.9104,6.8763,-0.9428,0.9497,9.7149,-1.0304,-1.9241,1.5755,0.3958,-0.3438,0.3504,73,20.08,-57.81,-122.3,193.71,-7.01,4.49,5,48.489,47.858624,12.126501,497,NaN,4,16.08,225.6,25-Dec,46007,2018-11-18 16:38:55:894
-0.6497,1.6635,10.5456,-0.731,1.143,9.7124,0.1885,0.3709,1.1341,0.4037,0.163,-0.0071,86,17.76,-56.65,-122.66,193.76,-3.81,2.83,5,52.212,47.858624,12.126501,497,NaN,4,16.08,225.6,0 / 25,47007,2018-11-18 16:38:56:894
-0.2075,1.1908,7.6233,-0.6614,0.8084,9.7509,0.5888,0.5448,-1.948,0.1509,-0.032,-0.2827,90,18.06,-54.72,-123.81,193.22,-4.86,3.5,5,51.696,47.858624,12.126501,497,NaN,4,16.08,225.6,0 / 25,48009,2018-11-18 16:38:57:896
-1.5739,1.7419,10.7937,-0.8223,1.209,9.697,0.9579,-1.1846,2.1672,-0.4105,-0.2597,-0.4505,81,20.69,-57.2,-123.96,191.16,-8.53,6.22,5,48.968,47.858967,12.125754,492,NaN,3.82,22.512,314.9,0 / 25,49007,2018-11-18 16:38:58:894
-0.896,0.7108,9.2932,-0.7211,0.7517,9.7512,0.109,0.1435,-1.5081,-0.1783,-0.0171,0.0771,72,19.7,-54.92,-124.31,192.33,-4.35,4.64,5,45.941,47.858967,12.125754,492,NaN,3.82,22.512,314.9,0 / 25,50007,2018-11-18 16:38:59:894
0.2287,0.9498,7.0351,-0.5867,0.8247,9.7543,-0.8682,-1.6317,0.8417,-0.5119,0.0856,-0.0338,76,19.23,-56.36,-124.55,198.96,-5.24,1.73,5,49.214,47.858967,12.125754,492,NaN,3.82,22.512,314.9,0 / 25,51008,2018-11-18 16:39:00:895
-0.9415,1.2819,11.6292,-0.6344,1.1261,9.7211,-0.5747,0.2053,1.5485,-0.0497,0.3585,0.2221,87,18.51,-56.56,-124.74,196.08,-7.01,3.25,5,50.727,47.858967,12.125754,492,NaN,3.82,22.512,314.9,0 / 25,52008,2018-11-18 16:39:01:895
0.757,0.8625,8.6431,-0.5343,0.8118,9.7584,-0.4054,0.84,-0.7739,0.0371,0.0017,0.1045,95,18.66,-55.07,-124.17,197.23,-6.57,2.99,5,53.346,47.858967,12.125754,492,NaN,3.82,22.512,314.9,0 / 25,53007,2018-11-18 16:39:02:894
-0.7573,2.4723,10.0893,-1.2554,1.6067,9.5923,-0.8974,0.9139,0.3393,0.1466,-0.4234,0.2454,97,22.57,-57.71,-123.08,188.1,-6.8,7.8,5,55.307,47.858967,12.125754,492,NaN,3.82,22.512,314.9,0 / 25,54008,2018-11-18 16:39:03:895
-0.8454,2.0194,9.012,-0.6566,1.3301,9.6938,-0.0268,0.4467,-0.9968,0.0289,0.1123,0.2191,98,20.2,-58.3,-124.45,197.19,-7.13,3.22,5,50.786,47.858967,12.125754,492,NaN,3.82,22.512,314.9,0 / 25,55007,2018-11-18 16:39:04:894
0.807,1.0149,8.0817,-0.6689,1.1508,9.7159,2.0038,0.267,-2.4099,-0.0611,-0.0243,-0.1428,98,20.34,-57.04,-124.22,197,-7.64,3.59,5,47.188,47.858967,12.125754,492,NaN,3.82,22.512,314.9,0 / 25,56007,2018-11-18 16:39:05:894
-0.5353,1.5774,9.911,-0.5849,1.3476,9.696,0.2375,0.7955,0.6843,0.1762,0.3233,0.3956,97,20.83,-58.48,-123.81,198.53,-7.9,3.45,5,51.221,47.858967,12.125754,492,NaN,3.82,22.512,314.9,0 / 25,57008,2018-11-18 16:39:06:895
-1.6551,1.262,8.7879,-0.6348,1.144,9.719,-1.0268,-0.2124,-0.1518,0.009,-0.0411,-0.1737,96,20.44,-57.56,-124,196.87,-7.2,3.36,5,41.707,47.858967,12.125754,492,NaN,3.82,22.512,314.9,0 / 25,58008,2018-11-18 16:39:07:895
-0.9138,-0.2842,12.2837,-0.4947,1.2835,9.7097,1.4053,-0.4172,2.563,0.0624,-0.1987,0.0365,95,20.63,-57.86,-123.07,196.28,-7.61,4.18,5,44.111,47.858967,12.125754,492,NaN,3.82,22.512,314.9,0 / 25,59007,2018-11-18 16:39:08:894
-1.133,1.6898,9.6628,-0.6459,1.5444,9.6627,-0.8741,0.4146,-0.1563,0.1141,-0.0981,0.2211,99,19.14,-57.69,-123.99,195.87,-9.06,3.82,5,41.795,47.858967,12.125754,492,NaN,3.82,22.512,314.9,0 / 25,60007,2018-11-18 16:39:09:894
-0.0807,0.469,9.696,-0.6907,1.452,9.6739,-0.1107,0.2058,-0.92,0.105,-0.0979,0.1463,96,20.08,-57.28,-123.88,196.37,-8.51,4.08,5,39.096,47.858967,12.125754,492,NaN,3.82,22.512,314.9,0 / 25,61008,2018-11-18 16:39:10:895
-1.5738,2.3825,9.6631,-0.7902,1.6737,9.6304,-0.4309,-0.0711,0.8837,0.0696,0.4389,0.4228,96,22.2,-57.4,-123.74,198.73,-9.83,4.69,5,41.87,47.858967,12.125754,492,NaN,3.82,22.512,314.9,0 / 25,62008,2018-11-18 16:39:11:895
-1.3196,1.5266,7.5565,-0.7837,1.0824,9.7152,-0.4551,0.3286,-1.6998,-0.1031,0.0248,-0.3136,96,19.77,-54.32,-123.57,194.04,-6.34,4.61,5,40.286,47.858967,12.125754,492,NaN,3.82,22.512,314.9,0 / 25,63008,2018-11-18 16:39:12:895
-0.4424,0.3222,11.8422,-1.1111,1.3202,9.6537,-0.2293,-1.9739,3.7385,0.0025,0.042,-0.1652,91,24.77,-59.42,-122.04,195.66,-10.67,7.06,5,41.99,47.858967,12.125754,492,NaN,3.82,22.512,314.9,0 / 25,64008,2018-11-18 16:39:13:895
-2.7688,2.5128,9.7111,-0.9852,1.9652,9.5571,-0.4173,1.2671,0.0452,0.0831,-0.1331,0.0197,87,20.16,-57.88,-123.36,191.33,-11.16,6.21,5,42.885,47.858967,12.125754,492,NaN,3.82,22.512,314.9,0 / 25,65007,2018-11-18 16:39:14:894
-0.8438,0.5434,8.7854,-1.3609,1.6412,9.5721,0.696,-1.0703,-1.0618,-0.0789,-0.2701,-0.3637,95,22.29,-56.12,-123.42,181.07,-9.59,9.85,5,40.25,47.858967,12.125754,492,NaN,3.82,22.512,314.9,0 / 25,66007,2018-11-18 16:39:15:894
0.4083,3.9535,9.7346,-0.4292,2.1537,9.5576,-0.2669,1.3362,1.0083,0.1693,0.0787,0.0512,93,13.25,-55.49,-124.98,195.78,-12.69,2.57,5,42.407,47.858967,12.125754,492,NaN,3.82,22.512,314.9,0 / 25,67008,2018-11-18 16:39:16:895
-0.5247,2.327,7.54,-0.6807,2.0142,9.5734,-0.1865,0.1466,-1.6845,0.2172,-0.0604,-0.1173,94,9.81,-55.37,-125.33,182.26,-11.85,4.07,5,42.521,47.858967,12.125754,492,NaN,3.82,22.512,314.9,0 / 25,68007,2018-11-18 16:39:17:894
-1.3262,0.6022,10.9795,-0.1659,1.3609,9.7103,1.6328,-0.0406,-0.9511,-0.7316,-0.1346,-0.6183,92,5.23,-52.69,-124.45,184.67,-7.98,0.98,5,40.753,47.858967,12.125754,492,NaN,3.82,22.512,314.9,0 / 25,69008,2018-11-18 16:39:18:895
-1.8218,2.7397,8.8497,-0.909,2.2224,9.5082,-1.1221,0.456,-0.7225,0.0791,0.0116,-0.2614,91,2,-57.19,-124.81,160.04,-13.1,5.46,5,38.337,47.858967,12.125754,492,NaN,3.82,22.512,314.9,0 / 25,70007,2018-11-18 16:39:19:894
0.267,1.3872,7.6008,-0.4549,1.7546,9.6377,0.0632,-0.9611,-1.3338,0.1707,0.1557,0.0276,92,0.18,-56.63,-126.61,169.83,-10.31,2.7,5,40.647,47.858967,12.125754,492,NaN,3.82,22.512,314.9,0 / 25,71007,2018-11-18 16:39:20:894
-2.1026,0.933,8.7446,-1.2157,2.0103,9.5211,-1.6868,-1.8702,2.0341,-0.7346,0.005,0.257,95,-0.18,-58.99,-126.9,153.26,-11.83,7.28,5,47.21,47.858967,12.125754,492,NaN,3.82,22.512,314.9,0 / 25,72008,2018-11-18 16:39:21:895
-1.0275,1.5409,8.5175,-0.4351,1.8078,9.6288,0.2171,0.9446,-0.0149,0.0849,-0.091,-0.0998,86,-3.34,-57.04,-126.25,165.19,-10.62,2.59,5,43.299,47.858967,12.125754,492,NaN,3.82,22.512,314.9,0 / 25,73008,2018-11-18 16:39:22:895
-2.7305,-0.7864,12.1565,-0.6668,1.7398,9.628,-1.289,-1.784,2.9298,-0.1532,-0.3765,-0.0179,84,-4.27,-57.11,-126.33,159.44,-10.22,3.96,5,44.97,47.858967,12.125754,492,NaN,3.82,22.512,314.9,0 / 25,74008,2018-11-18 16:39:23:895
-1.386,2.7167,9.0907,-0.2244,1.8438,9.6291,-1.4207,0.5224,-0.0441,0.0584,-0.2291,-0.1632,74,-6.68,-56.88,-125.57,162.92,-10.84,1.33,5,44.994,47.858967,12.125754,492,NaN,3.82,22.512,314.9,0 / 25,75007,2018-11-18 16:39:24:894
-0.499,0.7836,7.9532,-1.183,1.683,9.5885,0.6475,-1.3774,-0.3332,-0.0481,0.1155,-0.4733,71,-0.54,-57.57,-126.46,155.3,-9.88,7.03,5,42.025,47.858967,12.125754,492,NaN,3.82,22.512,314.9,0 / 25,76007,2018-11-18 16:39:25:894
-1.5123,1.1708,9.0555,-0.6865,1.7937,9.6167,-0.4182,0.9224,-0.2151,0.0056,-0.1247,0.4725,70,-3.57,-56.85,-125.6,158.62,-10.54,4.08,5,41.248,47.858967,12.125754,492,NaN,3.82,22.512,314.9,0 / 25,77008,2018-11-18 16:39:26:895
-1.3569,-0.9077,11.681,-0.4189,1.3581,9.7031,-0.6994,-1.9024,2.9558,-0.2829,-0.3077,-0.3128,68,-3.61,-55.57,-125.72,166.08,-7.96,2.47,5,38.965,47.858967,12.125754,492,NaN,3.82,22.512,314.9,0 / 25,78008,2018-11-18 16:39:27:895
-1.9559,3.3181,8.7746,-1.4225,2.1166,9.4693,-0.8145,1.0627,-0.7757,0.0244,0.0539,0.0715,64,1.47,-57.35,-126.16,148.32,-12.46,8.54,5,40.82,47.858967,12.125754,492,NaN,3.82,22.512,314.9,0 / 25,79008,2018-11-18 16:39:28:895
-3.107,1.0396,7.1744,-1.2977,2.2293,9.4613,-2.0349,-2.1153,-0.4064,-0.0366,-0.0136,-0.1623,64,1.06,-58.54,-125.61,150.96,-13.14,7.81,5,41.854,47.858967,12.125754,492,NaN,3.82,22.512,314.9,0 / 25,80007,2018-11-18 16:39:29:894
-1.2417,2.1898,9.5237,-0.8074,1.5233,9.6539,1.6004,1.8735,0.2894,0.0159,-0.0437,0.2333,63,-0.9,-55.29,-124.53,161.94,-8.94,4.78,5,38.637,47.858967,12.125754,492,NaN,3.82,22.512,314.9,0 / 25,81007,2018-11-18 16:39:30:894
-1.9983,1.6265,8.1889,-1.2884,1.3589,9.6262,-1.4877,-0.5726,0.0436,-0.2234,-0.1402,-0.5966,64,-1.66,-57.01,-124.55,153.33,-9.09,7.57,5,39.916,47.858967,12.125754,492,NaN,3.82,22.512,314.9,0 / 25,82007,2018-11-18 16:39:31:894
-0.8875,-0.9766,12.6446,-0.687,1.5198,9.6638,0.7804,-1.3049,2.4124,-0.3507,-0.1883,-0.5862,66,-5.55,-58.33,-124.15,158.85,-8.92,4.07,5,43.759,47.858967,12.125754,492,NaN,3.82,22.512,314.9,0 / 25,83007,2018-11-18 16:39:32:894
-2.0547,2.3312,10.0526,-1.2109,1.7512,9.5727,-1.0258,0.847,-0.7964,0.1745,0.1235,-0.1952,70,-4.58,-58.98,-124.96,150.18,-10.29,7.21,5,32.445,47.858967,12.125754,492,NaN,3.82,22.512,314.9,0 / 25,84007,2018-11-18 16:39:33:894
-2.1951,0.4807,8.7855,-1.3324,1.7291,9.5606,-1.2306,-1.3113,0.2795,0.5655,0.0357,0.495,71,-3.17,-59.11,-125.27,150.89,-10.16,7.93,5,37.732,47.858967,12.125754,492,NaN,3.82,22.512,314.9,0 / 25,85008,2018-11-18 16:39:34:895
-0.7344,2.7934,8.7852,-0.7121,1.7521,9.6226,-0.3841,0.8829,-0.4396,-0.0516,-0.1237,0.1503,72,-4.67,-58.8,-124.86,158.37,-10.29,4.23,5,48.337,47.858967,12.125754,492,NaN,3.82,22.512,314.9,0 / 25,86007,2018-11-18 16:39:35:894
-1.557,0.5959,9.8081,-1.0975,1.4497,9.6366,0.2329,-0.6447,0.9022,-0.0927,0.0531,-0.4173,71,-3.46,-58.78,-124.96,156.85,-8.5,6.5,5,40.751,47.858967,12.125754,492,NaN,3.82,22.512,314.9,0 / 25,87008,2018-11-18 16:39:36:895
-1.639,3.1439,9.0744,-1.2563,2.1462,9.4861,-1.2441,0.8375,-0.9728,0.0387,-0.0518,-0.0031,69,-3.61,-60.23,-125.56,146.79,-12.64,7.54,5,35.457,47.858967,12.125754,492,NaN,3.82,22.512,314.9,0 / 25,88007,2018-11-18 16:39:37:894
-1.9961,0.4739,9.8305,-1.7711,1.7885,9.4781,-0.5009,0.1396,-0.6431,-0.3849,-0.0289,-0.2989,66,-0.51,-59.69,-125.2,146.82,-10.51,10.58,5,41.452,47.858967,12.125754,492,NaN,3.82,22.512,314.9,0 / 25,89007,2018-11-18 16:39:38:894
-1.00E-04,3.5831,9.8591,-1.1858,1.7412,9.5777,0.6442,1.5983,0.1951,0.0301,0.1406,0.1203,68,-3.59,-58.94,-124.58,151.85,-10.23,7.06,5,40.595,47.858967,12.125754,492,NaN,3.82,22.512,314.9,0 / 25,90007,2018-11-18 16:39:39:894
-0.8453,1.8285,8.7935,-0.8472,1.4383,9.6635,-0.0996,0.2762,-1.4561,0.1551,-0.2234,-0.0988,75,-6.21,-59.98,-123.65,157.86,-8.43,5.01,5,42.717,47.858967,12.125754,492,NaN,3.82,22.512,314.9,0 / 25,91008,2018-11-18 16:39:40:895
1.468,1.2813,9.9017,-0.9936,1.349,9.6625,0.8899,-0.9545,0.7749,-0.4175,-0.0496,-0.1626,74,-5.03,-58.2,-123.53,156.47,-7.91,5.87,5,40.659,47.858967,12.125754,492,NaN,3.82,22.512,314.9,0 / 25,92007,2018-11-18 16:39:41:894
-1.301,2.1758,8.7676,-1.058,1.934,9.5557,-0.4271,0.7786,-1.1967,0.1948,0.1353,-0.0695,77,-4.17,-60.76,-123.75,153.66,-11.37,6.32,5,39.78,47.858967,12.125754,492,NaN,3.82,22.512,314.9,0 / 25,93007,2018-11-18 16:39:42:894
-1.6932,-0.8353,11.9966,-0.8445,1.5595,9.645,0.0803,-1.4544,0.1539,0.3922,-0.0115,0.2779,81,-4.32,-58.01,-123.66,158.55,-9.15,5,5,38.47,47.858967,12.125754,492,NaN,3.82,22.512,314.9,15 / 25,94008,2018-11-18 16:39:43:895
-1.0725,2.3035,9.4139,-0.864,1.7721,9.6064,-0.1959,0.4722,0.7436,0.0146,-0.1054,0.2373,83,-3.31,-58.88,-123.9,158.49,-10.41,5.14,5,42.023,47.858967,12.125754,492,NaN,3.82,22.512,314.9,0 / 25,95007,2018-11-18 16:39:44:894
-0.485,0.5071,10.1034,-0.3942,1.1043,9.7363,0.0981,-0.1091,-0.8502,0.1117,0.0692,-0.1388,81,-5.35,-55.72,-123.13,166.59,-6.47,2.32,5,41.713,47.858967,12.125754,492,NaN,3.82,22.512,314.9,0 / 25,96007,2018-11-18 16:39:45:894
-0.2251,2.1685,10.2963,-0.6169,1.6319,9.6502,0.4354,-0.9011,2.3879,0.0801,-0.0851,-0.1346,82,-4.64,-57.16,-124.29,160.12,-9.58,3.66,5,40.849,47.858967,12.125754,492,NaN,3.82,22.512,314.9,0 / 25,97008,2018-11-18 16:39:46:895
-0.2863,1.5302,7.4366,-0.5455,1.6379,9.6535,0.06,0.0545,-1.5243,-0.0767,-0.0493,-0.0706,86,-5.26,-57.55,-124.13,161.84,-9.61,3.23,5,42.751,47.858967,12.125754,492,NaN,3.82,22.512,314.9,0 / 25,98007,2018-11-18 16:39:47:894
0.5771,3.3475,10.3917,-0.3655,1.6928,9.6525,-0.0658,-0.2829,2.2349,0.1835,-0.0806,0.2958,85,-9.04,-58.96,-125.98,159.31,-9.94,2.17,5,38.978,47.858967,12.125754,492,NaN,3.82,22.512,314.9,0 / 25,99007,2018-11-18 16:39:48:894
-0.5944,2.2696,8.8631,-0.4397,1.6303,9.6602,-0.2794,0.8593,0.0435,0.1011,0.088,0.2993,93,-7.72,-57.99,-124.64,159.46,-9.57,2.61,5,41.103,47.858967,12.125754,492,NaN,3.82,22.512,314.9,0 / 25,100007,2018-11-18 16:39:49:894
-0.4072,2.0937,7.3697,-0.6401,1.7879,9.621,0.1015,0.4457,-1.3085,-0.0614,0.1203,0.0472,92,-5.58,-57.27,-125.68,156.62,-10.5,3.81,5,43.272,47.858967,12.125754,492,NaN,3.82,22.512,314.9,0 / 25,101008,2018-11-18 16:39:50:895
-1.0548,2.8179,8.8668,-0.7819,1.9971,9.5693,-0.3872,0.4737,0.4658,-0.0024,-0.039,0.0736,87,-3.43,-56.44,-125.66,155.67,-11.75,4.67,5,32.289,47.858967,12.125754,492,NaN,3.82,22.512,314.9,0 / 25,102008,2018-11-18 16:39:51:895
-0.6273,1.5917,7.8395,-0.6267,1.6306,9.6498,-0.2454,0.0816,-0.9122,-0.2773,-0.061,-0.36,84,-3.75,-55.91,-124.4,160.88,-9.57,3.72,5,41.453,47.858967,12.125754,492,NaN,3.82,22.512,314.9,0 / 25,103007,2018-11-18 16:39:52:894
-1.4631,-0.9674,13.2297,-0.6951,1.3675,9.6859,-0.8074,-1.6892,1.132,0.2292,0.02,0.3044,85,-3.81,-55.11,-125.04,160.78,-8.02,4.1,5,35.306,47.858967,12.125754,492,NaN,3.82,22.512,314.9,0 / 25,104007,2018-11-18 16:39:53:894
-1.074,2.5699,8.9462,-0.7295,1.7932,9.6137,-0.6752,0.473,-0.0416,0.0113,0.0186,-0.022,87,-4.73,-56.66,-124.93,156.56,-10.54,4.34,5,43.64,47.858967,12.125754,492,NaN,3.82,22.512,314.9,0 / 25,105008,2018-11-18 16:39:54:895
-1.1107,-0.4375,12.5746,-0.5474,1.1784,9.7202,-0.8893,-1.6315,1.8114,0.1025,0.0331,-0.0791,87,-4.85,-54.75,-124.36,163.25,-6.9,3.22,5,42.236,47.858967,12.125754,492,NaN,3.82,22.512,314.9,0 / 25,106007,2018-11-18 16:39:55:894
-0.8486,1.8629,10.1619,-0.4873,1.5916,9.6643,-0.7944,0.3465,0.5033,0.1147,0.1328,-0.041,87,-7.14,-57.06,-124.2,159.92,-9.34,2.89,5,38.979,47.858967,12.125754,492,NaN,3.82,22.512,314.9,0 / 25,107008,2018-11-18 16:39:56:895
4.00E-04,1.5627,8.6112,-0.1669,1.4629,9.6955,-0.1269,0.1633,-0.4663,0.1622,0.2427,-0.1268,88,-9.38,-58.15,-122.85,164.1,-8.58,0.99,5,40.686,47.858967,12.125754,492,NaN,3.82,22.512,314.9,0 / 25,108007,2018-11-18 16:39:57:894
-0.5813,-0.2515,12.1092,-0.3452,1.2952,9.7146,-0.2146,-0.9235,0.2789,-0.2604,0.1329,0.1782,88,-8.65,-56.29,-123.25,161.23,-7.59,2.04,5,35.692,47.858967,12.125754,492,NaN,3.82,22.512,314.9,0 / 25,109007,2018-11-18 16:39:58:894
-0.5573,1.4499,8.1377,-0.7457,1.2185,9.702,0.0302,0.0851,-0.6829,0.0415,0.0682,0.0079,92,-6.96,-57.31,-123.69,158.23,-7.14,4.4,5,39.974,47.858967,12.125754,492,NaN,3.82,22.512,314.9,0 / 25,110007,2018-11-18 16:39:59:894
-0.9421,0.1349,9.9736,-0.9679,1.4416,9.6517,0.8326,-1.0006,0.6287,-0.3009,-0.1326,-0.116,91,-5.32,-56.6,-124.29,155.64,-8.45,5.73,5,42.597,47.858967,12.125754,492,NaN,3.82,22.512,314.9,0 / 25,111007,2018-11-18 16:40:00:894
-1.1191,2.4122,10.2232,-0.317,1.9466,9.6063,-0.4904,0.6785,0.3388,0.1776,-0.014,0.0943,88,-9.01,-59.53,-123.81,159.1,-11.45,1.89,5,39.553,47.858967,12.125754,492,NaN,3.82,22.512,314.9,0 / 25,112008,2018-11-18 16:40:01:895
-0.2554,1.8762,8.3573,0.0679,1.5714,9.6797,-0.3043,0.4599,-0.7816,-0.2146,-0.0217,-0.2806,85,-10.62,-58.19,-123.94,164.83,-9.22,-0.4,5,40.611,47.858967,12.125754,492,NaN,3.82,22.512,314.9,0 / 25,113008,2018-11-18 16:40:02:895
0.4219,1.9821,10.2175,0.7091,1.6982,9.6324,-0.3686,0.3678,0.6294,0.0271,0.2357,0.3129,82,-14.34,-58.15,-122.46,172.06,-9.97,-4.21,5,41.209,47.858967,12.125754,492,NaN,3.82,22.512,314.9,0 / 25,114010,2018-11-18 16:40:03:897
0.7509,2.2784,6.6376,1.0393,1.9208,9.5604,-0.056,0.3099,-1.5436,0.1021,0.0329,-0.1782,84,-16.47,-60.87,-121.24,175.5,-11.3,-6.2,5,43.947,47.858967,12.125754,492,NaN,3.82,22.512,314.9,0 / 25,115007,2018-11-18 16:40:04:894
0.8852,3.121,9.622,0.5946,2.0909,9.5627,0.904,-0.555,0.7208,-0.3148,-0.0957,-0.058,82,-13.94,-61.15,-122.31,169.17,-12.31,-3.56,5,43.2,47.858967,12.125754,492,NaN,3.82,22.512,314.9,0 / 25,116008,2018-11-18 16:40:05:895
0.1334,3.0344,8.5712,0.7796,2.3951,9.4777,-0.5021,0.7442,-0.7155,0.3129,-0.0511,0.1697,82,-14.07,-61.93,-121.84,172.53,-14.14,-4.7,5,42.519,47.858967,12.125754,492,NaN,3.82,22.512,314.9,0 / 25,117007,2018-11-18 16:40:06:894
0.5386,0.1639,12.9664,0.8073,1.4497,9.6653,-0.0877,-0.9613,2.5612,0.3547,-0.0319,0.2937,84,-14.74,-59.74,-121.67,173.36,-8.5,-4.77,5,40.387,47.858967,12.125754,492,NaN,3.82,22.512,314.9,0 / 25,118008,2018-11-18 16:40:07:895
0.4499,2.6365,9.2563,0.595,1.7984,9.622,0.1741,0.977,-0.0965,-0.0549,-0.0389,0.0827,85,-12.55,-59.53,-122.12,171.52,-10.57,-3.54,5,42.371,47.858967,12.125754,492,NaN,3.82,22.512,314.9,0 / 25,119007,2018-11-18 16:40:08:894
1.2529,1.0511,10.4108,0.4536,1.3805,9.6984,0.0216,0.1639,-0.5924,0.0261,0.1387,-0.1236,85,-13.1,-59.13,-121.24,169.94,-8.09,-2.68,5,43.687,47.858967,12.125754,492,NaN,3.82,22.512,314.9,0 / 25,120007,2018-11-18 16:40:09:894
0.5152,2.7365,10.4292,0.2475,1.9549,9.6066,0.5617,0.704,0.9021,-0.04,-0.0705,0.0799,87,-11.98,-59.69,-122.25,165.76,-11.12,-1.42,5,39.085,47.858967,12.125754,492,NaN,3.82,22.512,314.9,0 / 25,121007,2018-11-18 16:40:10:894
-0.8913,0.2745,10.5137,-0.0475,1.5061,9.6902,-0.6732,-0.9613,0.3817,0.1331,-0.0181,0.0213,85,-9.39,-58.65,-121.06,166.42,-8.83,0.28,5,39.909,47.858967,12.125754,492,NaN,3.82,22.512,314.9,0 / 25,122008,2018-11-18 16:40:11:895
-0.3154,2.3027,10.0854,-0.1533,1.8142,9.6362,-0.0479,0.7241,0.1819,0.0568,0.0222,-0.0064,90,-9.6,-58.87,-120.46,161.61,-10.66,0.91,5,40.223,47.858967,12.125754,492,NaN,3.82,22.512,314.9,0 / 25,123008,2018-11-18 16:40:12:895
0.7528,0.7695,10.3251,0.1317,1.2765,9.7223,0.4808,-0.47,0.7518,-0.2223,-0.1058,0.0305,87,-13.88,-57.35,-121.29,163.12,-7.48,-0.78,5,43.194,47.858967,12.125754,492,NaN,3.82,22.512,314.9,0 / 25,124007,2018-11-18 16:40:13:894
-0.7733,2.2775,9.0231,-0.0936,1.8293,9.6341,-0.4728,0.4832,-0.1219,-0.2137,-0.2467,-0.0229,86,-9.72,-58.6,-119.92,161.33,-9.61,1.39,5,44.23,47.858967,12.125754,492,NaN,3.82,22.512,314.9,0 / 25,125008,2018-11-18 16:40:14:895
-0.0647,1.4015,9.1717,0.0986,1.4853,9.693,-0.2418,-0.0254,-0.2,0.0487,-0.0206,-0.2092,85,-9.91,-56.77,-120.05,169.03,-8.06,-1.11,5,43.355,47.858967,12.125754,492,NaN,3.82,22.512,314.9,0 / 25,126008,2018-11-18 16:40:15:895
0.239,0.2642,11.9456,-0.3299,1.4347,9.6955,0.0102,-1.5038,3.0969,0.041,0.5314,0.3179,89,-9.28,-58.24,-123.02,169.88,-10.84,-1.38,5,41.465,47.858967,12.125754,492,NaN,3.82,22.512,314.9,0 / 25,127008,2018-11-18 16:40:16:895
0.1432,1.811,8.3625,-0.0572,1.3725,9.71,0.0476,0.4204,-1.1405,0.0513,0.0067,-0.0405,84,-9.57,-57.27,-123.33,164.71,-8.05,0.34,5,42.408,47.858967,12.125754,492,NaN,3.82,22.512,314.9,0 / 25,128008,2018-11-18 16:40:17:895
-0.1343,-0.8959,13.0826,-0.5492,1.1458,9.724,-0.1861,-2.0755,3.4016,0.1519,-0.0596,0.1897,87,-6.91,-56.24,-124.64,158.25,-10.54,2.7,5,40.949,47.858967,12.125754,492,NaN,3.82,22.512,314.9,0 / 25,129007,2018-11-18 16:40:18:894
-1.0182,2.1844,9.3145,-0.8366,1.7492,9.613,-0.6272,0.4026,-0.0084,0.2528,0.0688,-0.1444,87,-5.43,-56.86,-124.85,162.58,-8.05,3.32,5,44.456,47.858967,12.125754,492,NaN,3.82,22.512,314.9,0 / 25,130007,2018-11-18 16:40:19:894
-1.5189,0.7738,9.2761,-0.5635,1.0048,9.7388,-0.541,0.1382,-0.7091,0.3456,-0.1172,0.2455,84,-8.3,-55.88,-123.78,158.48,-7.96,3.31,5,40.305,47.858967,12.125754,492,NaN,3.82,22.512,314.9,0 / 25,131008,2018-11-18 16:40:20:895
-0.9294,2.4631,8.6465,-0.8145,1.6224,9.6372,-0.1502,0.8543,-0.6168,0.0351,-0.1185,0.2448,82,-6.19,-57.08,-125.04,155.18,-9.52,4.83,5,39.419,47.858967,12.125754,492,NaN,3.82,22.512,314.9,0 / 25,132007,2018-11-18 16:40:21:894
-0.3163,1.4966,8.9968,-0.4088,1.487,9.6846,0.0094,0.0474,-0.7046,0.0707,-0.0209,-0.0119,83,-8.52,-56.73,-125.06,160.26,-9.65,1.68,5,43.976,47.858967,12.125754,492,NaN,3.82,22.512,314.9,0 / 25,133008,2018-11-18 16:40:22:895
1.5465,2.3499,9.5048,-0.5964,2.3344,9.5061,1.9061,-0.5365,0.4733,0.0145,-0.112,0.078,84,-5.85,-59.88,-126.04,148.24,-12.21,6.4,5,45.586,47.858967,12.125754,492,NaN,3.82,22.512,314.9,0 / 25,134007,2018-11-18 16:40:23:894
-0.8406,2.6628,9.9303,-0.7706,1.865,9.5968,-0.0944,0.6053,0.995,0.1488,0.1869,0.1113,81,-5.06,-57.67,-125.14,162.15,-9.36,3.17,5,45.122,47.858967,12.125754,492,NaN,3.82,22.512,314.9,0 / 25,135007,2018-11-18 16:40:24:894
-0.0699,0.4806,6.9669,-0.5289,1.2017,9.7184,0.7118,-0.48,-2.7685,0.8846,-0.1284,0.4797,82,-5.97,-54.33,-125.65,161.43,-7.04,3.11,5,45.355,47.858967,12.125754,492,NaN,3.82,22.512,314.9,0 / 25,136008,2018-11-18 16:40:25:895
-0.597,1.5779,10.6557,-0.3657,1.3955,9.7,-0.2505,0.3149,0.9343,0.2346,0.4352,0.4505,81,-7.11,-55.56,-124.16,167.24,-6.65,1.09,5,46.816,47.858967,12.125754,492,NaN,3.82,22.512,314.9,0 / 25,137008,2018-11-18 16:40:26:895
0.1572,2.0431,7.1949,0.2043,1.4924,9.6903,-0.2933,0.4977,-1.6979,0.2026,0.2592,0.3618,80,-10.62,-56.39,-122.7,170.57,-8.9,-2.31,5,45.862,47.858967,12.125754,492,NaN,3.82,22.512,314.9,0 / 25,138007,2018-11-18 16:40:27:894
2.7712,1.2627,8.5057,1.3893,1.8742,9.5251,0.2184,0.5552,0.6583,0.0444,0.0322,-0.0739,76,-17.04,-56.26,-121.16,181.16,-11.02,-8.3,5,48.856,47.858967,12.125754,492,NaN,3.82,22.512,314.9,0 / 25,139007,2018-11-18 16:40:28:894
-2.5581,0.0681,9.6219,-0.7911,0.4747,9.7632,-1.6234,-0.343,0.5103,0.8873,-0.9352,-0.0444,80,-6.99,-50.42,-121.71,171.95,-6.63,-0.93,5,44.983,47.858967,12.125754,492,NaN,3.82,22.512,314.9,0 / 25,140007,2018-11-18 16:40:29:894
-1.7374,-0.149,7.8568,0.0647,0.5117,9.7931,-1.9308,-1.1192,-0.5021,-0.5382,0.1984,-0.1775,75,-5.4,-54.32,-123.08,170.08,-3.46,1.46,5,46.147,47.858967,12.125754,492,NaN,3.82,22.512,314.9,0 / 25,141007,2018-11-18 16:40:30:894
-2.7739,0.0976,11.9228,-2.2704,-0.2783,9.5361,-1.7675,0.4774,1.6629,-0.6515,0.7369,0.1441,87,3.32,-50.17,-123.62,165.95,-1.04,6.91,5,47.752,47.858967,12.125754,492,NaN,3.82,22.512,314.9,15 / 25,142007,2018-11-18 16:40:31:894
1.0737,3.4613,5.4058,-0.3609,2.1355,9.5645,1.0595,0.2587,-2.6819,1.0359,0.9432,-0.2098,82,-2.05,-56.76,-125.77,166.55,-12.58,2.16,5,47.077,47.858967,12.125754,492,NaN,3.82,22.512,314.9,0 / 25,143007,2018-11-18 16:40:32:894
1.9522,1.5971,9.2018,-0.4434,1.4289,9.6919,0.3056,0.0816,-0.0553,-0.5888,-0.1388,-0.2326,85,-2.62,-54.4,-125.74,160.56,-10.71,3.41,5,47.032,47.85995,12.126292,490,NaN,4.97,11.792,334.2,0 / 25,144008,2018-11-18 16:40:33:895
-1.0458,1.84,10.8145,-1.8602,3.3131,9.0406,-0.2285,-0.8958,-0.1866,0.0257,0.4504,-0.5055,86,2.24,-63.55,-125.62,141.03,-21.44,5.94,5,47.518,47.85995,12.126292,490,NaN,4.97,11.792,334.2,0 / 25,145008,2018-11-18 16:40:34:895
-4.4579,3.6738,7.6366,-3.485,3.6275,8.4182,0.0554,0.2671,-1.3275,0.3777,-0.0479,-0.0352,113,14.46,-64.13,-124.81,112.94,-21.71,22.49,5,50.094,47.85995,12.126292,490,NaN,4.97,11.792,334.2,0 / 25,146008,2018-11-18 16:40:35:895
-1.7798,1.3546,10.3623,-1.3479,1.6345,9.5751,0.2476,0.229,-0.1738,-0.6057,-0.1775,-0.6511,84,4.17,-54.62,-124.88,144.38,-12.49,10.72,5,50.129,47.85995,12.126292,490,NaN,4.97,11.792,334.2,0 / 25,147008,2018-11-18 16:40:36:895
-0.3205,1.5599,5.8455,-1.3309,1.1602,9.6464,-0.8139,-0.2356,-0.0876,-0.1453,0.203,-0.0152,81,0.99,-55.52,-124.51,156.74,-6.73,8.59,5,55.568,47.85995,12.126292,490,NaN,4.97,11.792,334.2,0 / 25,148008,2018-11-18 16:40:37:895
-5.1523,-0.6313,11.1123,-1.9412,1.284,9.5265,0.0497,-0.3765,-0.1207,-0.3712,0.0429,-0.2523,73,4.93,-57.4,-123.9,146.81,-9.81,13.07,5,57.119,47.85995,12.126292,490,NaN,4.97,11.792,334.2,0 / 25,149007,2018-11-18 16:40:38:894
-2.4158,2.8467,10.0395,-1.6966,1.5862,9.5276,-0.3253,0.6715,0.4762,0.2104,-0.048,0.3582,62,0.87,-56.39,-124.1,149.68,-9.31,10.1,5,52.774,47.85995,12.126292,490,NaN,4.97,11.792,334.2,0 / 25,150007,2018-11-18 16:40:39:894
-1.5759,2.0176,9.6763,-1.3447,1.5008,9.5974,0.6228,0.1672,-1.8023,-0.0473,0.2053,-0.3361,47,-0.21,-57.14,-123.69,156.55,-8.1,7.87,5,57.433,47.85995,12.126292,490,NaN,4.97,11.792,334.2,0 / 25,151008,2018-11-18 16:40:40:895
0.2699,1.7317,9.8196,-1.5994,1.6722,9.5297,-0.8763,-1.7257,0.8812,-0.1196,-0.1957,-0.3224,31,1.7,-58.81,-124.62,144.17,-13.15,10.7,5,56.433,47.85995,12.126292,490,NaN,4.97,11.792,334.2,0 / 25,152009,2018-11-18 16:40:41:896
-2.4821,2.5967,7.8186,-2.143,2.0557,9.3462,-0.7093,0.5758,0.5005,0.3998,0.1255,-0.1209,19,3.56,-57.9,-124.48,149.34,-9.3,12.18,5,43.468,47.85995,12.126292,490,NaN,4.97,11.792,334.2,0 / 25,153008,2018-11-18 16:40:42:895
-2.2285,1.5371,8.307,-2.1022,2.0749,9.3512,1.2591,-0.262,-1.8999,-0.2283,0.0826,-0.0199,11,2.46,-58.8,-124.28,141.71,-12.22,12.67,5,45.191,47.85995,12.126292,490,NaN,4.97,11.792,334.2,0 / 25,154008,2018-11-18 16:40:43:895
-2.0576,1.8689,10.4977,-2.0709,2.1648,9.3378,0.125,0.5562,1.0812,-0.085,-0.0558,0.0834,9,0.94,-58.62,-123.63,141.38,-12.5,12.1,5,40.877,47.85995,12.126292,490,NaN,4.97,11.792,334.2,0 / 25,155008,2018-11-18 16:40:44:895
-0.6058,1.2651,9.7235,-2.061,1.5826,9.4561,-0.9699,-0.0399,-0.5567,0.2802,-0.1026,0.045,9,-0.18,-56.95,-123.26,143.76,-9.94,12.18,5,45.932,47.85995,12.126292,490,NaN,4.97,11.792,334.2,0 / 25,156009,2018-11-18 16:40:45:896
-1.2832,1.7262,11.4868,-2.4514,1.7047,9.341,-1.5147,-2.7912,1.6495,-0.2929,-0.1357,-0.0924,21,0.42,-59.18,-124.53,134.69,-13.15,13.97,5,42.176,47.85995,12.126292,490,NaN,4.97,11.792,334.2,0 / 25,157008,2018-11-18 16:40:46:895
-2.7993,2.5925,7.1657,-2.6173,1.3235,9.3578,-0.6954,0.138,0.0517,0.3407,-0.1022,0.0782,72,3.15,-57.13,-125.92,142.18,-7.76,15.63,5,43.16,47.85995,12.126292,490,NaN,4.97,11.792,334.2,0 / 25,158007,2018-11-18 16:40:47:894
-3.4608,0.5087,8.9518,-2.0643,2.0581,9.3634,-0.4478,-1.7224,1.0182,-0.3062,0.1106,0.0213,52,0.88,-59.93,-123.27,142.93,-12.22,12.21,5,37.205,47.85995,12.126292,490,NaN,4.97,11.792,334.2,0 / 25,159008,2018-11-18 16:40:48:895
-1.406,2.9752,9.5067,-1.7218,2.2142,9.397,-0.3184,0.6368,1.0457,0.2127,0.3279,0.1765,24,-4.42,-60.43,-123.21,145.09,-10.86,9.99,5,41.359,47.85995,12.126292,490,NaN,4.97,11.792,334.2,0 / 25,160008,2018-11-18 16:40:49:895
-4.3014,2.3215,6.2697,-2.2736,2.3517,9.245,-0.5205,-0.1583,0.2454,-0.4468,0.0337,-0.4213,14,-2.28,-66.7,-123.9,123.17,-20.24,14.46,5,39.679,47.85995,12.126292,490,NaN,4.97,11.792,334.2,0 / 25,161008,2018-11-18 16:40:50:895
-0.5094,1.4028,8.7455,-1.4745,2.1249,9.4594,0.9296,0.3305,1.5217,-0.2547,0.1811,-0.5155,22,-4.56,-59.18,-124.17,142.4,-12.51,8.86,5,44.713,47.85995,12.126292,490,NaN,4.97,11.792,334.2,0 / 25,162008,2018-11-18 16:40:51:895
-1.2723,3.6127,9.0642,-2.0317,2.3884,9.2918,-0.519,0.6224,-0.0821,0.2722,-0.0032,0.0217,24,-2.36,-60.65,-125.16,139.93,-12.42,12.06,5,39.338,47.85995,12.126292,490,NaN,4.97,11.792,334.2,0 / 25,163007,2018-11-18 16:40:52:894
-3.7246,0.4268,9.1366,-1.956,2.1099,9.3751,0.2194,0.2028,-1.667,0.0299,-0.0899,0.1623,33,-1.98,-59.75,-125.34,134.98,-13.52,12.96,5,38.838,47.85995,12.126292,490,NaN,4.97,11.792,334.2,0 / 25,164007,2018-11-18 16:40:53:894
-0.7516,2.7291,10.1821,-2.2718,1.7832,9.3718,-2.1558,-1.5017,1.601,-0.1642,0.0593,0.0197,44,-1.48,-60.67,-125.91,138.7,-13.1,12.25,5,40.461,47.85995,12.126292,490,NaN,4.97,11.792,334.2,0 / 25,165007,2018-11-18 16:40:54:894
-1.6627,3.1348,7.6355,-2.0299,2.2914,9.3166,0.446,0.35,-2.0057,0.1929,-0.1327,0.1871,54,-3.28,-62.43,-125.89,136.78,-13.51,12.29,5,42.252,47.85995,12.126292,490,NaN,4.97,11.792,334.2,0 / 25,166007,2018-11-18 16:40:55:894
-0.9037,2.2448,9.7139,-1.8633,2.4648,9.3072,-0.1472,-1.8727,1.2573,-0.0695,-0.057,0.0038,64,-3.23,-61.79,-126.35,132.89,-15.71,11.68,5,43.117,47.85995,12.126292,490,NaN,4.97,11.792,334.2,0 / 25,167007,2018-11-18 16:40:56:894
-1.9668,2.7791,9.3242,-2.1608,2.5331,9.2241,0.1051,0.9386,0.2062,0.203,-0.028,0.3022,70,0.42,-59.27,-127.52,134.9,-12.77,13.63,5,41.348,47.85995,12.126292,490,NaN,4.97,11.792,334.2,0 / 25,168007,2018-11-18 16:40:57:894
-2.0912,2.3351,8.682,-2.2032,2.1569,9.3094,-0.0542,0.4114,-0.1446,-0.2016,-0.0584,0.2539,78,2.33,-58.85,-129,133.64,-13.56,13.99,5,43.667,47.85995,12.126292,490,NaN,4.97,11.792,334.2,0 / 25,169007,2018-11-18 16:40:58:894
-3.8445,-0.2684,9.9183,-2.1934,2.1564,9.3118,0.3081,1.7119,-0.002,-0.6763,0.1472,-0.0074,82,3.35,-58.16,-129.33,137.23,-12.7,13.25,5,46.29,47.85995,12.126292,490,NaN,4.97,11.792,334.2,0 / 25,170007,2018-11-18 16:40:59:894
-1.691,2.313,9.9984,-1.4003,1.7607,9.5451,1.081,1.0066,-1.1554,0.0837,-0.0047,0.0999,81,1.29,-56.47,-128.28,155.18,-9.03,7.79,5,46.201,47.85995,12.126292,490,NaN,4.97,11.792,334.2,0 / 25,171007,2018-11-18 16:41:00:894
-2.6559,-1.5932,10.481,-1.4096,1.4399,9.5974,2.3905,-0.8319,-0.1188,1.0189,0.1034,-0.1165,79,2.81,-53.71,-126.85,148.22,-11.68,9.03,5,45.458,47.85995,12.126292,490,NaN,4.97,11.792,334.2,0 / 25,172008,2018-11-18 16:41:01:895
-0.6034,3.2477,10.4476,-1.2582,2.5159,9.3945,1.8304,1.7432,-0.9957,0.0805,-0.4188,0.1147,73,6.01,-59.34,-127.26,147.57,-14.45,10.07,5,45.379,47.85995,12.126292,490,NaN,4.97,11.792,334.2,0 / 25,173007,2018-11-18 16:41:02:894
-2.1763,0.9179,8.6906,-1.8201,0.6504,9.6143,-0.7548,-0.2436,0.3294,0.0813,0.0576,-0.1322,72,4.27,-52.81,-125.54,156.39,-3.8,10.72,5,44.068,47.85995,12.126292,490,NaN,4.97,11.792,334.2,0 / 25,174007,2018-11-18 16:41:03:894
-3.1338,-1.1376,12.1014,-2.6354,1.2848,9.3581,0.2429,1.3332,0.8832,-0.3365,0.1909,-0.1176,80,7.35,-56.25,-125.4,146.39,-9.94,13.57,5,44.691,47.85995,12.126292,490,NaN,4.97,11.792,334.2,0 / 25,175008,2018-11-18 16:41:04:895
-2.1232,0.952,8.045,-2.5063,0.2648,9.4773,-0.0167,0.4061,-1.1699,0.1531,-0.1284,0.1,81,5.88,-52.32,-124.99,152.49,-2,14.2,5,39.886,47.85995,12.126292,490,NaN,4.97,11.792,334.2,0 / 25,176007,2018-11-18 16:41:05:894
-2.8081,1.6064,9.3549,-2.7009,0.4335,9.4174,0.1223,-0.6684,0.6853,-0.0042,0.0946,0.1716,82,8.95,-53.11,-124.9,148.72,-4.19,16.41,5,42.36,47.85995,12.126292,490,NaN,4.97,11.792,334.2,0 / 25,177007,2018-11-18 16:41:06:894
-3.2191,0.0712,9.1756,-2.693,0.3497,9.4232,-1.1376,-1.0073,-0.7426,-0.1205,-0.0646,-0.0631,80,8.21,-51.18,-125.59,149.96,-2.04,15.95,5,37.259,47.85995,12.126292,490,NaN,4.97,11.792,334.2,0 / 25,178007,2018-11-18 16:41:07:894
-3.7994,-0.4289,10.6395,-3.0446,0.7782,9.2895,-0.3998,0.6281,0.8988,0.1936,0.2124,0.2758,82,8.93,-51.86,-125.72,152.78,-2.09,15.23,5,39.926,47.85995,12.126292,490,NaN,4.97,11.792,334.2,0 / 25,179008,2018-11-18 16:41:08:895
-2.3877,0.966,7.8774,-2.9285,0.4665,9.3476,0.7043,1.3199,-1.0198,-0.0548,0.0205,0.1769,82,10.86,-50.6,-125.95,151.9,-4.4,15.03,5,45.324,47.85995,12.126292,490,NaN,4.97,11.792,334.2,0 / 25,180008,2018-11-18 16:41:09:895
-4.1295,-2.1827,9.9792,-2.6676,0.6272,9.416,1.8111,0.002,-0.4429,-0.1193,-0.3854,-0.4974,83,13.57,-50.24,-125.23,147.25,-3.97,18.6,5,47.619,47.85995,12.126292,490,NaN,4.97,11.792,334.2,0 / 25,181007,2018-11-18 16:41:10:894
-2.2489,1.196,10.3019,-2.633,1.1489,9.3765,-0.4015,0.3203,-0.3783,0.1718,-0.1895,0.1763,79,14.61,-52.82,-125.62,152.66,-6.73,15.69,5,45.433,47.85995,12.126292,490,NaN,4.97,11.792,334.2,0 / 25,182007,2018-11-18 16:41:11:894
-0.7833,0.3421,8.5726,-1.2444,0.3165,9.7222,0.6077,-0.3832,-0.1139,0.2111,-0.09,0.5595,73,12.22,-50.34,-125.42,169.5,-2,9.34,5,46.454,47.85995,12.126292,490,NaN,4.97,11.792,334.2,0 / 25,183008,2018-11-18 16:41:12:895
-1.5343,0.2383,10.9067,-1.6417,0.6056,9.6493,0.1549,0.9665,0.4895,-0.2493,0.6001,0.5769,73,12.05,-51.08,-125.89,175.82,-3.21,6.89,5,50.219,47.85995,12.126292,490,NaN,4.97,11.792,334.2,0 / 25,184007,2018-11-18 16:41:13:894
-0.8003,1.0784,8.0081,-1.2231,0.6357,9.7093,-0.0568,0.3501,-0.9891,0.0618,0.4268,0.0272,73,10.12,-50.72,-126.02,180.8,-3.07,4.26,5,50.737,47.85995,12.126292,490,NaN,4.97,11.792,334.2,0 / 25,185008,2018-11-18 16:41:14:895
-1.3088,-0.7227,9.111,-2.2683,0.645,9.5189,0.5228,0.7699,1.3917,0.1117,-0.3167,-0.2148,79,19.32,-52.06,-124.02,166.78,-3.77,13.4,5,48.727,47.85995,12.126292,490,NaN,4.97,11.792,334.2,0 / 25,186007,2018-11-18 16:41:15:894
-2.2988,1.5995,9.0251,-2.1151,1.1,9.5125,0.9217,0.7724,-0.0812,0.1837,0.1427,0.182,76,18.12,-53.25,-124.54,169.18,-4.37,11.95,5,52.684,47.85995,12.126292,490,NaN,4.97,11.792,334.2,0 / 25,187007,2018-11-18 16:41:16:894
-3.3493,0.0872,8.8847,-1.8617,1.2795,9.5429,-0.3707,-0.0016,-1.147,0.2193,0.074,0.0385,77,17.64,-54.82,-125.19,166.64,-7.8,12.23,5,53.155,47.85995,12.126292,490,NaN,4.97,11.792,334.2,0 / 25,188008,2018-11-18 16:41:17:895
-3.6589,-0.8865,10.6672,-2.415,1.5868,9.3712,1.5767,-0.9074,-1.7112,0.1425,-0.3534,-0.0521,78,23.7,-54.91,-122.83,161.51,-6.47,17.26,5,54.919,47.85995,12.126292,490,NaN,4.97,11.792,334.2,0 / 25,189007,2018-11-18 16:41:18:894
-2.2394,1.4072,10.3965,-2.6767,1.2699,9.3484,1.4774,1.6408,0.0839,0.1778,0.2358,0.0793,79,18.7,-52.73,-124.27,168.01,-5.04,12.77,5,50.932,47.85995,12.126292,490,NaN,4.97,11.792,334.2,25-Nov,190007,2018-11-18 16:41:19:894
-1.4211,1.6829,7.9191,-2.0427,0.9399,9.5454,-1.2598,-1.0748,0.1489,0.1381,-0.1301,0.1652,78,18.11,-53.59,-124.54,169.87,-5.35,11.6,5,52.494,47.85995,12.126292,490,NaN,4.97,11.792,334.2,0 / 25,191007,2018-11-18 16:41:20:894
-2.7744,2.8584,9.0363,-2.5977,1.832,9.2772,0.7848,0.6037,0.7995,-0.0697,-0.0226,0.1575,80,22.11,-56.71,-123.22,161.78,-9.82,15.43,5,51.548,47.86041,12.126575,499,NaN,4.39,15.008,330.6,0 / 25,192007,2018-11-18 16:41:21:894
-2.6705,1.9483,8.1181,-2.6233,1.591,9.3144,-0.2475,0.7839,-0.7404,0.2197,0.1308,0.1279,79,21.37,-55.12,-123.59,165.45,-6.96,14.28,5,50.594,47.86041,12.126575,499,NaN,4.39,15.008,330.6,0 / 25,193008,2018-11-18 16:41:22:895
-4.2139,-0.2853,8.8612,-2.9519,1.372,9.2506,-1.2273,-1.3289,-0.4063,0.1447,-0.2652,0.3789,80,22.71,-55.05,-122.46,157.82,-8.04,17.7,5,51.89,47.86041,12.126575,499,NaN,4.39,15.008,330.6,0 / 25,194008,2018-11-18 16:41:23:895
-2.4332,2.4832,10.431,-2.8814,1.2341,9.2922,-0.5371,0.3736,0.6768,0.0614,-0.0658,0.2156,80,22.2,-53.89,-122.9,155.99,-5.89,18.55,5,50.471,47.86041,12.126575,499,NaN,4.39,15.008,330.6,0 / 25,195008,2018-11-18 16:41:24:895
-2.7663,0.7129,10.2219,-2.0947,1.5725,9.4504,0.035,0.2142,-1.3248,0.0713,-0.0126,0.1833,77,18.67,-55.93,-124,169.65,-8.95,11.7,5,51.654,47.86041,12.126575,499,NaN,4.39,15.008,330.6,0 / 25,196007,2018-11-18 16:41:25:894
-1.357,1.8699,11.9795,-1.7198,1.3676,9.5573,-0.4363,-1.3194,1.7231,-0.4939,-0.3676,-0.2371,76,18.93,-57.22,-124.62,166.03,-11.33,12.15,5,47.942,47.86041,12.126575,499,NaN,4.39,15.008,330.6,0 / 25,197008,2018-11-18 16:41:26:895
-2.6204,2.3674,8.3609,-2.1929,1.91,9.3656,-0.5928,0.2275,0.6186,0.1637,0.028,-0.0417,77,19.83,-57,-124.46,168.97,-9.8,12.26,5,47.991,47.86041,12.126575,499,NaN,4.39,15.008,330.6,0 / 25,198007,2018-11-18 16:41:27:894
-2.6467,0.7464,9.1574,-1.4519,1.7642,9.5368,0.9655,-0.2894,-2.1766,0.3515,-0.8441,-0.0334,73,14.74,-56.21,-125.14,149.91,-10.33,15.52,5,50.949,47.86041,12.126575,499,NaN,4.39,15.008,330.6,0 / 25,199007,2018-11-18 16:41:28:894
-2.611,3.1927,9.6299,-2.6493,1.9756,9.233,-0.2676,0.5888,-0.0643,-0.1505,0.2739,0.0708,79,21.96,-57.54,-123.63,156.8,-11.68,16.2,5,46.779,47.86041,12.126575,499,NaN,4.39,15.008,330.6,0 / 25,200007,2018-11-18 16:41:29:894
